File: sample_data/sample_xrd.csv
two_theta,intensity
10,2.926
10.0613,2.889
10.1226,2.847
10.184,2.849
10.2453,2.87
10.3066,2.865
10.3679,2.866
10.4293,2.848
10.4906,2.855
10.5519,2.837
10.6132,2.843
10.6745,2.852
10.7359,2.853
10.7972,2.823
10.8585,2.81
10.9198,2.809
10.9811,2.828
11.0425,2.82
11.1038,2.805
11.1651,2.818
11.2264,2.792
11.2878,2.782
11.3491,2.769
11.4104,2.785
11.4717,2.79
11.533,2.791
11.5944,2.769
11.6557,2.751
11.717,2.711
11.7783,2.684
11.8397,2.688
11.901,2.694
11.9623,2.708
12.0236,2.724
12.0849,2.738
12.1463,2.723
12.2076,2.725
12.2689,2.723
12.3302,2.722
12.3915,2.724
12.4529,2.727
12.5142,2.703
12.5755,2.686
12.6368,2.696
12.6982,2.694
12.7595,2.688
12.8208,2.72
12.8821,2.713
12.9434,2.697
13.0048,2.671
13.0661,2.67
13.1274,2.664
13.1887,2.659
13.2501,2.672
13.3114,2.663
13.3727,2.651
13.434,2.625
13.4953,2.616
13.5567,2.634
13.618,2.632
13.6793,2.633
13.7406,2.649
13.8019,2.613
13.8633,2.603
13.9246,2.611
13.9859,2.63
14.0472,2.634
14.1086,2.619
14.1699,2.619
14.2312,2.608
14.2925,2.588
14.3538,2.574
14.4152,2.59
14.4765,2.604
14.5378,2.584
14.5991,2.614
14.6605,2.632
14.7218,2.631
14.7831,2.592
14.8444,2.558
14.9057,2.54
14.9671,2.515
15.0284,2.52
15.0897,2.559
15.151,2.577
15.2123,2.589
15.2737,2.588
15.335,2.592
15.3963,2.582
15.4576,2.592
15.519,2.582
15.5803,2.56
15.6416,2.54
15.7029,2.535
15.7642,2.546
15.8256,2.565
15.8869,2.596
15.9482,2.58
16.0095,2.56
16.0709,2.552
16.1322,2.538
16.1935,2.538
16.2548,2.531
16.3161,2.552
16.3775,2.553
16.4388,2.56
16.5001,2.569
16.5614,2.577
16.6227,2.583
16.6841,2.572
16.7454,2.561
16.8067,2.583
16.868,2.593
16.9294,2.618
16.9907,2.615
17.052,2.597
17.1133,2.579
17.1746,2.557
17.236,2.535
17.2973,2.538
17.3586,2.572
17.4199,2.613
17.4813,2.631
17.5426,2.642
17.6039,2.642
17.6652,2.641
17.7265,2.614
17.7879,2.625
17.8492,2.617
17.9105,2.638
17.9718,2.666
18.0331,2.718
18.0945,2.732
18.1558,2.731
18.2171,2.744
18.2784,2.711
18.3398,2.662
18.4011,2.659
18.4624,2.664
18.5237,2.651
18.585,2.665
18.6464,2.654
18.7077,2.671
18.769,2.664
18.8303,2.647
18.8917,2.684
18.953,2.708
19.0143,2.714
19.0756,2.717
19.1369,2.731
19.1983,2.724
19.2596,2.718
19.3209,2.705
19.3822,2.707
19.4435,2.709
19.5049,2.714
19.5662,2.726
19.6275,2.705
19.6888,2.691
19.7502,2.674
19.8115,2.651
19.8728,2.656
19.9341,2.663
19.9954,2.66
20.0568,2.655
20.1181,2.649
20.1794,2.623
20.2407,2.608
20.3021,2.614
20.3634,2.605
20.4247,2.609
20.486,2.595
20.5473,2.599
20.6087,2.598
20.67,2.601
20.7313,2.607
20.7926,2.607
20.8539,2.584
20.9153,2.604
20.9766,2.591
21.0379,2.592
21.0992,2.616
21.1606,2.604
21.2219,2.599
21.2832,2.577
21.3445,2.594
21.4058,2.61
21.4672,2.609
21.5285,2.615
21.5898,2.619
21.6511,2.605
21.7125,2.603
21.7738,2.61
21.8351,2.605
21.8964,2.598
21.9577,2.577
22.0191,2.566
22.0804,2.547
22.1417,2.533
22.203,2.532
22.2643,2.544
22.3257,2.556
22.387,2.57
22.4483,2.584
22.5096,2.567
22.571,2.558
22.6323,2.533
22.6936,2.527
22.7549,2.548
22.8162,2.545
22.8776,2.578
22.9389,2.574
23.0002,2.554
23.0615,2.544
23.1229,2.562
23.1842,2.569
23.2455,2.583
23.3068,2.568
23.3681,2.557
23.4295,2.517
23.4908,2.502
23.5521,2.53
23.6134,2.554
23.6747,2.561
23.7361,2.539
23.7974,2.529
23.8587,2.529
23.92,2.535
23.9814,2.564
24.0427,2.569
24.104,2.579
24.1653,2.544
24.2266,2.519
24.288,2.51
24.3493,2.513
24.4106,2.525
24.4719,2.536
24.5333,2.541
24.5946,2.548
24.6559,2.547
24.7172,2.538
24.7785,2.533
24.8399,2.533
24.9012,2.52
24.9625,2.508
25.0238,2.517
25.0851,2.557
25.1465,2.574
25.2078,2.571
25.2691,2.572
25.3304,2.568
25.3918,2.548
25.4531,2.558
25.5144,2.586
25.5757,2.583
25.637,2.554
25.6984,2.518
25.7597,2.487
25.821,2.492
25.8823,2.499
25.9437,2.536
26.005,2.567
26.0663,2.569
26.1276,2.551
26.1889,2.541
26.2503,2.534
26.3116,2.537
26.3729,2.524
26.4342,2.544
26.4955,2.549
26.5569,2.569
26.6182,2.572
26.6795,2.569
26.7408,2.556
26.8022,2.555
26.8635,2.526
26.9248,2.515
26.9861,2.525
27.0474,2.531
27.1088,2.545
27.1701,2.546
27.2314,2.562
27.2927,2.561
27.3541,2.539
27.4154,2.54
27.4767,2.555
27.538,2.583
27.5993,2.602
27.6607,2.631
27.722,2.635
27.7833,2.614
27.8446,2.605
27.9059,2.581
27.9673,2.556
28.0286,2.539
28.0899,2.527
28.1512,2.532
28.2126,2.512
28.2739,2.513
28.3352,2.487
28.3965,2.485
28.4578,2.478
28.5192,2.477
28.5805,2.501
28.6418,2.542
28.7031,2.55
28.7645,2.589
28.8258,2.629
28.8871,2.655
28.9484,2.692
29.0097,2.704
29.0711,2.688
29.1324,2.653
29.1937,2.622
29.255,2.599
29.3164,2.576
29.3777,2.556
29.439,2.569
29.5003,2.571
29.5616,2.558
29.623,2.568
29.6843,2.549
29.7456,2.528
29.8069,2.511
29.8682,2.499
29.9296,2.513
29.9909,2.508
30.0522,2.532
30.1135,2.54
30.1749,2.534
30.2362,2.532
30.2975,2.537
30.3588,2.537
30.4201,2.542
30.4815,2.547
30.5428,2.555
30.6041,2.533
30.6654,2.523
30.7268,2.511
30.7881,2.519
30.8494,2.522
30.9107,2.509
30.972,2.539
31.0334,2.544
31.0947,2.559
31.156,2.58
31.2173,2.575
31.2786,2.581
31.34,2.548
31.4013,2.54
31.4626,2.563
31.5239,2.566
31.5853,2.569
31.6466,2.559
31.7079,2.567
31.7692,2.581
31.8305,2.573
31.8919,2.6
31.9532,2.579
32.0145,2.591
32.0758,2.573
32.1372,2.577
32.1985,2.607
32.2598,2.637
32.3211,2.679
32.3824,2.729
32.4438,2.75
32.5051,2.778
32.5664,2.765
32.6277,2.758
32.689,2.754
32.7504,2.731
32.8117,2.725
32.873,2.739
32.9343,2.736
32.9957,2.726
33.057,2.7
33.1183,2.684
33.1796,2.666
33.2409,2.647
33.3023,2.635
33.3636,2.622
33.4249,2.604
33.4862,2.604
33.5476,2.596
33.6089,2.601
33.6702,2.616
33.7315,2.613
33.7928,2.602
33.8542,2.58
33.9155,2.582
33.9768,2.603
34.0381,2.632
34.0994,2.639
34.1608,2.654
34.2221,2.659
34.2834,2.647
34.3447,2.639
34.4061,2.665
34.4674,2.666
34.5287,2.668
34.59,2.668
34.6513,2.68
34.7127,2.7
34.774,2.69
34.8353,2.692
34.8966,2.691
34.958,2.648
35.0193,2.656
35.0806,2.657
35.1419,2.651
35.2032,2.671
35.2646,2.697
35.3259,2.723
35.3872,2.724
35.4485,2.712
35.5098,2.711
35.5712,2.703
35.6325,2.717
35.6938,2.773
35.7551,2.839
35.8165,2.885
35.8778,2.914
35.9391,2.962
36.0004,3.003
36.0617,3.056
36.1231,3.102
36.1844,3.143
36.2457,3.139
36.307,3.045
36.3684,3
36.4297,2.943
36.491,2.937
36.5523,2.903
36.6136,2.916
36.675,2.931
36.7363,2.89
36.7976,2.875
36.8589,2.868
36.9202,2.871
36.9816,2.869
37.0429,2.868
37.1042,2.842
37.1655,2.827
37.2269,2.788
37.2882,2.79
37.3495,2.775
37.4108,2.792
37.4721,2.797
37.5335,2.814
37.5948,2.807
37.6561,2.801
37.7174,2.802
37.7788,2.797
37.8401,2.78
37.9014,2.78
37.9627,2.77
38.024,2.755
38.0854,2.732
38.1467,2.721
38.208,2.728
38.2693,2.691
38.3306,2.694
38.392,2.697
38.4533,2.668
38.5146,2.646
38.5759,2.636
38.6373,2.602
38.6986,2.587
38.7599,2.596
38.8212,2.604
38.8825,2.617
38.9439,2.614
39.0052,2.613
39.0665,2.613
39.1278,2.584
39.1892,2.579
39.2505,2.562
39.3118,2.542
39.3731,2.514
39.4344,2.493
39.4958,2.514
39.5571,2.519
39.6184,2.516
39.6797,2.525
39.741,2.546
39.8024,2.549
39.8637,2.57
39.925,2.582
39.9863,2.579
40.0477,2.581
40.109,2.568
40.1703,2.57
40.2316,2.568
40.2929,2.568
40.3543,2.555
40.4156,2.525
40.4769,2.514
40.5382,2.492
40.5996,2.476
40.6609,2.48
40.7222,2.5
40.7835,2.51
40.8448,2.542
40.9062,2.551
40.9675,2.533
41.0288,2.511
41.0901,2.501
41.1514,2.496
41.2128,2.492
41.2741,2.505
41.3354,2.527
41.3967,2.524
41.4581,2.526
41.5194,2.529
41.5807,2.534
41.642,2.524
41.7033,2.505
41.7647,2.506
41.826,2.504
41.8873,2.503
41.9486,2.512
42.01,2.492
42.0713,2.485
42.1326,2.512
42.1939,2.508
42.2552,2.513
42.3166,2.528
42.3779,2.545
42.4392,2.519
42.5005,2.508
42.5618,2.484
42.6232,2.465
42.6845,2.43
42.7458,2.41
42.8071,2.421
42.8685,2.446
42.9298,2.474
42.9911,2.481
43.0524,2.471
43.1137,2.455
43.1751,2.444
43.2364,2.437
43.2977,2.449
43.359,2.446
43.4204,2.448
43.4817,2.44
43.543,2.423
43.6043,2.414
43.6656,2.421
43.727,2.423
43.7883,2.425
43.8496,2.435
43.9109,2.452
43.9722,2.465
44.0336,2.473
44.0949,2.474
44.1562,2.484
44.2175,2.472
44.2789,2.472
44.3402,2.471
44.4015,2.458
44.4628,2.452
44.5241,2.45
44.5855,2.455
44.6468,2.47
44.7081,2.458
44.7694,2.436
44.8308,2.418
44.8921,2.413
44.9534,2.406
45.0147,2.407
45.076,2.409
45.1374,2.409
45.1987,2.4
45.26,2.4
45.3213,2.394
45.3826,2.413
45.444,2.431
45.5053,2.443
45.5666,2.454
45.6279,2.437
45.6893,2.412
45.7506,2.405
45.8119,2.416
45.8732,2.445
45.9345,2.447
45.9959,2.447
46.0572,2.438
46.1185,2.399
46.1798,2.385
46.2412,2.388
46.3025,2.407
46.3638,2.409
46.4251,2.416
46.4864,2.409
46.5478,2.393
46.6091,2.391
46.6704,2.391
46.7317,2.39
46.793,2.406
46.8544,2.385
46.9157,2.406
46.977,2.396
47.0383,2.391
47.0997,2.407
47.161,2.427
47.2223,2.427
47.2836,2.423
47.3449,2.412
47.4063,2.404
47.4676,2.377
47.5289,2.373
47.5902,2.385
47.6516,2.39
47.7129,2.413
47.7742,2.407
47.8355,2.409
47.8968,2.415
47.9582,2.415
48.0195,2.417
48.0808,2.409
48.1421,2.406
48.2034,2.415
48.2648,2.428
48.3261,2.432
48.3874,2.438
48.4487,2.436
48.5101,2.408
48.5714,2.377
48.6327,2.371
48.694,2.395
48.7553,2.405
48.8167,2.393
48.878,2.406
48.9393,2.397
49.0006,2.379
49.062,2.382
49.1233,2.393
49.1846,2.411
49.2459,2.422
49.3072,2.437
49.3686,2.426
49.4299,2.413
49.4912,2.423
49.5525,2.411
49.6138,2.411
49.6752,2.411
49.7365,2.417
49.7978,2.428
49.8591,2.42
49.9205,2.43
49.9818,2.448
50.0431,2.463
50.1044,2.46
50.1657,2.437
50.2271,2.453
50.2884,2.433
50.3497,2.417
50.411,2.435
50.4724,2.446
50.5337,2.455
50.595,2.426
50.6563,2.434
50.7176,2.432
50.779,2.438
50.8403,2.463
50.9016,2.482
50.9629,2.49
51.0242,2.477
51.0856,2.461
51.1469,2.459
51.2082,2.451
51.2695,2.471
51.3309,2.486
51.3922,2.484
51.4535,2.462
51.5148,2.429
51.5761,2.414
51.6375,2.396
51.6988,2.4
51.7601,2.395
51.8214,2.395
51.8828,2.393
51.9441,2.401
52.0054,2.419
52.0667,2.418
52.128,2.407
52.1894,2.381
52.2507,2.357
52.312,2.356
52.3733,2.368
52.4346,2.393
52.496,2.401
52.5573,2.4
52.6186,2.41
52.6799,2.405
52.7413,2.416
52.8026,2.407
52.8639,2.402
52.9252,2.398
52.9865,2.389
53.0479,2.406
53.1092,2.405
53.1705,2.424
53.2318,2.45
53.2932,2.449
53.3545,2.446
53.4158,2.44
53.4771,2.452
53.5384,2.443
53.5998,2.449
53.6611,2.44
53.7224,2.428
53.7837,2.425
53.845,2.408
53.9064,2.432
53.9677,2.462
54.029,2.471
54.0903,2.461
54.1517,2.456
54.213,2.413
54.2743,2.395
54.3356,2.373
54.3969,2.38
54.4583,2.393
54.5196,2.392
54.5809,2.402
54.6422,2.412
54.7036,2.416
54.7649,2.429
54.8262,2.43
54.8875,2.436
54.9488,2.441
55.0102,2.419
55.0715,2.41
55.1328,2.4
55.1941,2.393
55.2554,2.401
55.3168,2.407
55.3781,2.428
55.4394,2.422
55.5007,2.412
55.5621,2.422
55.6234,2.42
55.6847,2.43
55.746,2.423
55.8073,2.413
55.8687,2.402
55.93,2.383
55.9913,2.393
56.0526,2.392
56.114,2.4
56.1753,2.421
56.2366,2.415
56.2979,2.419
56.3592,2.406
56.4206,2.399
56.4819,2.388
56.5432,2.381
56.6045,2.369
56.6658,2.385
56.7272,2.385
56.7885,2.376
56.8498,2.372
56.9111,2.369
56.9725,2.341
57.0338,2.346
57.0951,2.353
57.1564,2.381
57.2177,2.409
57.2791,2.419
57.3404,2.408
57.4017,2.389
57.463,2.375
57.5244,2.365
57.5857,2.352
57.647,2.374
57.7083,2.374
57.7696,2.381
57.831,2.365
57.8923,2.344
57.9536,2.337
58.0149,2.338
58.0762,2.353
58.1376,2.367
58.1989,2.386
58.2602,2.397
58.3215,2.416
58.3829,2.416
58.4442,2.43
58.5055,2.445
58.5668,2.436
58.6281,2.418
58.6895,2.411
58.7508,2.393
58.8121,2.36
58.8734,2.368
58.9348,2.373
58.9961,2.387
59.0574,2.381
59.1187,2.382
59.18,2.38
59.2414,2.37
59.3027,2.361
59.364,2.367
59.4253,2.369
59.4866,2.378
59.548,2.366
59.6093,2.366
59.6706,2.375
59.7319,2.379
59.7933,2.392
59.8546,2.412
59.9159,2.413
59.9772,2.412
60.0385,2.426
60.0999,2.425
60.1612,2.426
60.2225,2.436
60.2838,2.435
60.3452,2.435
60.4065,2.386
60.4678,2.379
60.5291,2.364
60.5904,2.337
60.6518,2.323
60.7131,2.331
60.7744,2.33
60.8357,2.317
60.897,2.313
60.9584,2.322
61.0197,2.311
61.081,2.317
61.1423,2.328
61.2037,2.318
61.265,2.316
61.3263,2.33
61.3876,2.34
61.4489,2.327
61.5103,2.329
61.5716,2.314
61.6329,2.293
61.6942,2.289
61.7556,2.288
61.8169,2.292
61.8782,2.292
61.9395,2.303
62.0008,2.301
62.0622,2.3
62.1235,2.297
62.1848,2.31
62.2461,2.297
62.3074,2.293
62.3688,2.304
62.4301,2.308
62.4914,2.308
62.5527,2.303
62.6141,2.305
62.6754,2.302
62.7367,2.299
62.798,2.302
62.8593,2.305
62.9207,2.306
62.982,2.296
63.0433,2.29
63.1046,2.283
63.166,2.276
63.2273,2.281
63.2886,2.299
63.3499,2.297
63.4112,2.293
63.4726,2.298
63.5339,2.29
63.5952,2.296
63.6565,2.307
63.7178,2.317
63.7792,2.319
63.8405,2.308
63.9018,2.306
63.9631,2.297
64.0245,2.301
64.0858,2.317
64.1471,2.334
64.2084,2.332
64.2697,2.32
64.3311,2.325
64.3924,2.333
64.4537,2.334
64.515,2.348
64.5764,2.361
64.6377,2.362
64.699,2.342
64.7603,2.346
64.8216,2.368
64.883,2.38
64.9443,2.393
65.0056,2.395
65.0669,2.392
65.1283,2.37
65.1896,2.337
65.2509,2.334
65.3122,2.33
65.3735,2.34
65.4349,2.344
65.4962,2.344
65.5575,2.329
65.6188,2.331
65.6801,2.336
65.7415,2.341
65.8028,2.349
65.8641,2.348
65.9254,2.326
65.9868,2.32
66.0481,2.318
66.1094,2.333
66.1707,2.333
66.232,2.324
66.2934,2.312
66.3547,2.299
66.416,2.3
66.4773,2.303
66.5387,2.326
66.6,2.316
66.6613,2.301
66.7226,2.279
66.7839,2.269
66.8453,2.288
66.9066,2.286
66.9679,2.287
67.0292,2.305
67.0905,2.318
67.1519,2.311
67.2132,2.291
67.2745,2.285
67.3358,2.27
67.3972,2.261
67.4585,2.27
67.5198,2.294
67.5811,2.298
67.6424,2.281
67.7038,2.261
67.7651,2.264
67.8264,2.26
67.8877,2.271
67.9491,2.273
68.0104,2.275
68.0717,2.256
68.133,2.251
68.1943,2.249
68.2557,2.262
68.317,2.262
68.3783,2.257
68.4396,2.25
68.5009,2.236
68.5623,2.229
68.6236,2.227
68.6849,2.228
68.7462,2.241
68.8076,2.245
68.8689,2.244
68.9302,2.255
68.9915,2.253
69.0528,2.238
69.1142,2.244
69.1755,2.241
69.2368,2.241
69.2981,2.234
69.3595,2.235
69.4208,2.237
69.4821,2.227
69.5434,2.222
69.6047,2.204
69.6661,2.207
69.7274,2.216
69.7887,2.223
69.85,2.225
69.9113,2.227
69.9727,2.225
70.034,2.22
70.0953,2.224
70.1566,2.226
70.218,2.22
70.2793,2.224
70.3406,2.212
70.4019,2.205
70.4632,2.205
70.5246,2.218
70.5859,2.214
70.6472,2.2
70.7085,2.201
70.7699,2.198
70.8312,2.195
70.8925,2.192
70.9538,2.204
71.0151,2.213
71.0765,2.215
71.1378,2.222
71.1991,2.211
71.2604,2.204
71.3217,2.208
71.3831,2.197
71.4444,2.196
71.5057,2.188
71.567,2.193
71.6284,2.201
71.6897,2.207
71.751,2.221
71.8123,2.215
71.8736,2.207
71.935,2.177
71.9963,2.167
72.0576,2.164
72.1189,2.182
72.1803,2.188
72.2416,2.199
72.3029,2.208
72.3642,2.205
72.4255,2.213
72.4869,2.215
72.5482,2.216
72.6095,2.209
72.6708,2.189
72.7321,2.173
72.7935,2.166
72.8548,2.153
72.9161,2.171
72.9774,2.182
73.0388,2.207
73.1001,2.211
73.1614,2.211
73.2227,2.203
73.284,2.196
73.3454,2.193
73.4067,2.205
73.468,2.203
73.5293,2.202
73.5907,2.203
73.652,2.201
73.7133,2.189
73.7746,2.183
73.8359,2.183
73.8973,2.178
73.9586,2.179
74.0199,2.175
74.0812,2.194
74.1425,2.208
74.2039,2.216
74.2652,2.221
74.3265,2.222
74.3878,2.216
74.4492,2.223
74.5105,2.223
74.5718,2.222
74.6331,2.225
74.6944,2.223
74.7558,2.224
74.8171,2.216
74.8784,2.204
74.9397,2.202
75.0011,2.204
75.0624,2.195
75.1237,2.199
75.185,2.206
75.2463,2.212
75.3077,2.2
75.369,2.198
75.4303,2.198
75.4916,2.191
75.5529,2.186
75.6143,2.194
75.6756,2.21
75.7369,2.21
75.7982,2.205
75.8596,2.196
75.9209,2.178
75.9822,2.167
76.0435,2.168
76.1048,2.177
76.1662,2.182
76.2275,2.178
76.2888,2.184
76.3501,2.186
76.4115,2.198
76.4728,2.196
76.5341,2.197
76.5954,2.191
76.6567,2.189
76.7181,2.187
76.7794,2.189
76.8407,2.201
76.902,2.199
76.9633,2.195
77.0247,2.197
77.086,2.203
77.1473,2.2
77.2086,2.191
77.27,2.198
77.3313,2.201
77.3926,2.206
77.4539,2.209
77.5152,2.219
77.5766,2.209
77.6379,2.192
77.6992,2.19
77.7605,2.187
77.8219,2.194
77.8832,2.187
77.9445,2.191
78.0058,2.187
78.0671,2.183
78.1285,2.182
78.1898,2.187
78.2511,2.187
78.3124,2.193
78.3737,2.19
78.4351,2.187
78.4964,2.197
78.5577,2.193
78.619,2.192
78.6804,2.199
78.7417,2.189
78.803,2.191
78.8643,2.189
78.9256,2.195
78.987,2.196
79.0483,2.185
79.1096,2.184
79.1709,2.178
79.2323,2.184
79.2936,2.183
79.3549,2.187
79.4162,2.189
79.4775,2.183
79.5389,2.178
79.6002,2.174
79.6615,2.161
79.7228,2.162
79.7841,2.156
79.8455,2.154
79.9068,2.15
79.9681,2.156
79.9886,2.156