File: sample_data/sample_xrd_2.csv
two_theta,intensity
10,123.97
10.06,127.17
10.12,123.12
10.18,118.23
10.24,122.84
10.3,118.23
10.36,126.94
10.42,119.15
10.48,120.43
10.54,124.42
10.6,133.31
10.66,118.55
10.72,122.07
10.78,125.91
10.84,119.34
10.9,123.78
10.96,126.1
11.02,125.87
11.08,120.38
11.14,130.22
11.2,114.35
11.26,125.71
11.32,121.05
11.38,121.86
11.44,118.23
11.5,126.3
11.56,125.99
11.62,119.57
11.68,116.91
11.74,122.97
11.8,126.25
11.86,122.54
11.92,116.34
11.98,118.45
12.04,121.21
12.1,121.98
12.16,127.22
12.22,124.23
12.28,123.41
12.34,123.18
12.4,117.97
12.46,129.9
12.52,130.43
12.58,118.5
12.64,126.33
12.7,118.09
12.76,133.17
12.82,118.25
12.88,119.15
12.94,122.53
13,122.45
13.06,120.83
13.12,123.93
13.18,117.37
13.24,133.96
13.3,118.82
13.36,122.56
13.42,125.59
13.48,116.99
13.54,124.2
13.6,129.94
13.66,128.96
13.72,124.36
13.78,131.72
13.84,121.56
13.9,119.02
13.96,123.49
14.02,130.56
14.08,113.29
14.14,117.47
14.2,128.16
14.26,121.17
14.32,126.3
14.38,120.15
14.44,124.53
14.5,124.8
14.56,119.41
14.62,120.74
14.68,120.07
14.74,122.91
14.8,119.36
14.86,116.43
14.92,118.29
14.98,117.94
15.04,132.45
15.1,127.71
15.16,123.18
15.22,122.53
15.28,126.24
15.34,125.65
15.4,120.3
15.46,134.4
15.52,120.13
15.58,125.28
15.64,128.62
15.7,121.64
15.76,122.55
15.82,124.79
15.88,122.86
15.94,122.21
16,132.72
16.06,122.46
16.12,122.44
16.18,132.79
16.24,132.87
16.3,122.68
16.36,129.13
16.42,123.25
16.48,133.32
16.54,123.9
16.6,131.81
16.66,119.2
16.72,120.93
16.78,127.35
16.84,124.68
16.9,114.02
16.96,116.45
17.02,128.61
17.08,129.73
17.14,125.76
17.2,123.66
17.26,119.15
17.32,120.74
17.38,128.7
17.44,128.78
17.5,136.15
17.56,132.55
17.62,131.1
17.68,116.56
17.74,127.2
17.8,113.05
17.86,126.91
17.92,128.44
17.98,121.13
18.04,128.77
18.1,123.36
18.16,114.74
18.22,113.05
18.28,123.32
18.34,131.4
18.4,125.24
18.46,117.39
18.52,128.83
18.58,126.79
18.64,124.19
18.7,121.84
18.76,121.61
18.82,126.54
18.88,123.2
18.94,123.28
19,124.3
19.06,135.35
19.12,130.37
19.18,124.88
19.24,117.08
19.3,122.75
19.36,130.59
19.42,123.04
19.48,128.19
19.54,119.4
19.6,126.25
19.66,128.05
19.72,121.27
19.78,128.51
19.84,123.77
19.9,129.9
19.96,115.28
20.02,129.73
20.08,110.45
20.14,127.47
20.2,117.51
20.26,124.9
20.32,128.69
20.38,133.51
20.44,132.06
20.5,123.19
20.56,126.71
20.62,120.73
20.68,117.63
20.74,131.21
20.8,117.06
20.86,124.61
20.92,126.54
20.98,128.86
21.04,127.05
21.1,124.05
21.16,119.38
21.22,127.29
21.28,130.14
21.34,122.39
21.4,118.43
21.46,121.19
21.52,132.39
21.58,127.55
21.64,124.28
21.7,135.75
21.76,126.96
21.82,127.05
21.88,119.42
21.94,129.9
22,128.44
22.06,122.74
22.12,129.71
22.18,128.6
22.24,118.81
22.3,119.54
22.36,122.9
22.42,126.15
22.48,128.36
22.54,132.84
22.6,134.1
22.66,116.38
22.72,125.13
22.78,128.72
22.84,136.38
22.9,125.43
22.96,126.98
23.02,125.3
23.08,129.13
23.14,127.1
23.2,117.77
23.26,124.54
23.32,118.19
23.38,113.46
23.44,122.74
23.5,128.07
23.56,128.28
23.62,129.49
23.68,124.2
23.74,133.89
23.8,127.99
23.86,115.18
23.92,114.85
23.98,125.47
24.04,121.34
24.1,121.63
24.16,125.42
24.22,130.06
24.28,125.52
24.34,130.02
24.4,126.13
24.46,119.14
24.52,128.06
24.58,121.07
24.64,129.43
24.7,127.49
24.76,118.62
24.82,132.68
24.88,127.26
24.94,129.36
25,126.86
25.06,137.06
25.12,122.23
25.18,129.07
25.24,130.58
25.3,117.98
25.36,120.52
25.42,133.73
25.48,127.01
25.54,128.96
25.6,126.74
25.66,131.48
25.72,127.25
25.78,126.3
25.84,129.63
25.9,126.48
25.96,132.24
26.02,121.71
26.08,133.58
26.14,120.95
26.2,126.18
26.26,124.69
26.32,125.22
26.38,121.55
26.44,121.45
26.5,127.43
26.56,133.38
26.62,135.13
26.68,123.58
26.74,134.5
26.8,136.91
26.86,126.94
26.92,143.32
26.98,132.29
27.04,132
27.1,127.55
27.16,117.82
27.22,120.31
27.28,124.07
27.34,125.53
27.4,128.97
27.46,127.91
27.52,127.56
27.58,127.5
27.64,122.1
27.7,129.12
27.76,115.19
27.82,124.93
27.88,126.18
27.94,123.46
28,129.89
28.06,137.23
28.12,136.27
28.18,167.32
28.24,283.25
28.3,510.92
28.36,812.26
28.42,1007.75
28.48,965.44
28.54,707.57
28.6,417.1
28.66,241.38
28.72,150.05
28.78,137.7
28.84,131.26
28.9,126.38
28.96,130.02
29.02,130.38
29.08,124.58
29.14,139.37
29.2,136.26
29.26,127.65
29.32,126.94
29.38,128.41
29.44,129.38
29.5,123.07
29.56,121.22
29.62,120.67
29.68,130.21
29.74,130.02
29.8,132.73
29.86,134.98
29.92,132.26
29.98,132.56
30.04,126.39
30.1,130.19
30.16,132.29
30.22,135.74
30.28,123.32
30.34,127.2
30.4,130.29
30.46,131.69
30.52,117.73
30.58,133.88
30.64,126.17
30.7,128.68
30.76,132.74
30.82,133.6
30.88,124.94
30.94,131.48
31,122.58
31.06,141.04
31.12,129.58
31.18,131.08
31.24,126.59
31.3,128.59
31.36,136.14
31.42,123.36
31.48,124.39
31.54,143.02
31.6,130.22
31.66,129.33
31.72,122.05
31.78,127.68
31.84,133.06
31.9,135.23
31.96,133.99
32.02,132.22
32.08,123.68
32.14,125.21
32.2,136.64
32.26,128.03
32.32,134.92
32.38,124.33
32.44,125.54
32.5,127.96
32.56,128.11
32.62,128.04
32.68,128.55
32.74,129.58
32.8,138.01
32.86,126.72
32.92,131.83
32.98,134.63
33.04,130.87
33.1,130.08
33.16,117.29
33.22,127.75
33.28,124.66
33.34,138.62
33.4,123.88
33.46,124.66
33.52,125.86
33.58,131.78
33.64,125.71
33.7,122.85
33.76,132.82
33.82,134.82
33.88,139.47
33.94,125.19
34,123.23
34.06,129.35
34.12,126.32
34.18,131.39
34.24,129
34.3,123.06
34.36,123.99
34.42,136.44
34.48,125.51
34.54,127.15
34.6,127.31
34.66,130.51
34.72,130.23
34.78,137.88
34.84,138.56
34.9,130.5
34.96,129.33
35.02,137.79
35.08,126.6
35.14,130.06
35.2,135.27
35.26,128.06
35.32,126.14
35.38,133.3
35.44,128.48
35.5,130.5
35.56,132.22
35.62,119.57
35.68,130.75
35.74,130.35
35.8,131.34
35.86,119.87
35.92,122.65
35.98,125.73
36.04,133.65
36.1,118.19
36.16,116.73
36.22,134.67
36.28,133.49
36.34,132.57
36.4,126.91
36.46,122.92
36.52,132.22
36.58,134.48
36.64,135.18
36.7,140.12
36.76,144.39
36.82,133
36.88,125.72
36.94,127.24
37,129.66
37.06,132.71
37.12,129.09
37.18,129.72
37.24,122.35
37.3,132.92
37.36,137.29
37.42,135.23
37.48,130.98
37.54,132.01
37.6,137.28
37.66,130.35
37.72,137.44
37.78,126.64
37.84,128.53
37.9,140.57
37.96,134.16
38.02,129.69
38.08,128.42
38.14,134.61
38.2,129.28
38.26,137.7
38.32,142.56
38.38,131.58
38.44,133.41
38.5,126.93
38.56,134.78
38.62,126.88
38.68,132.74
38.74,116.8
38.8,128.27
38.86,138.81
38.92,143.27
38.98,128.7
39.04,131.16
39.1,131.14
39.16,140.66
39.22,128.13
39.28,136.72
39.34,125
39.4,132.37
39.46,120.54
39.52,142.35
39.58,140.42
39.64,132.49
39.7,127.89
39.76,133.6
39.82,131.87
39.88,130.24
39.94,126.28
40,129.22
40.06,133.72
40.12,121.56
40.18,132.78
40.24,136.62
40.3,133.22
40.36,130.61
40.42,118.46
40.48,130.11
40.54,131.4
40.6,135.06
40.66,126.48
40.72,136.07
40.78,139.93
40.84,133.56
40.9,131.21
40.96,135.17
41.02,128.82
41.08,125.58
41.14,136.34
41.2,130.55
41.26,126.8
41.32,126.74
41.38,124.64
41.44,134.31
41.5,126.31
41.56,121.58
41.62,131.91
41.68,132.1
41.74,137.43
41.8,125.81
41.86,129.12
41.92,134.39
41.98,127.47
42.04,139.16
42.1,139.65
42.16,131.79
42.22,131.64
42.28,129.54
42.34,124.07
42.4,135.86
42.46,138.87
42.52,121.3
42.58,138.43
42.64,133.8
42.7,138.51
42.76,133.16
42.82,135.65
42.88,125.7
42.94,139.03
43,130.67
43.06,131.3
43.12,135.2
43.18,133.92
43.24,132.79
43.3,129.84
43.36,134.76
43.42,125.38
43.48,132.26
43.54,135.24
43.6,125.94
43.66,139.61
43.72,130.8
43.78,137.88
43.84,126.63
43.9,135.61
43.96,124.9
44.02,131.14
44.08,134.82
44.14,134.96
44.2,130.78
44.26,133.14
44.32,130.81
44.38,127.06
44.44,130.46
44.5,134.29
44.56,134.19
44.62,133.69
44.68,131.29
44.74,132.95
44.8,131.98
44.86,127.39
44.92,131.08
44.98,138.46
45.04,130.73
45.1,137.18
45.16,128.91
45.22,130.2
45.28,128.85
45.34,138.35
45.4,131.9
45.46,142.71
45.52,127.47
45.58,141.54
45.64,122.07
45.7,140.35
45.76,135.81
45.82,134.29
45.88,125.09
45.94,133.64
46,134.2
46.06,132.38
46.12,136.84
46.18,139.28
46.24,135.87
46.3,132.21
46.36,136.97
46.42,138.42
46.48,130.2
46.54,142.41
46.6,138.38
46.66,136.74
46.72,135.81
46.78,130.34
46.84,139.88
46.9,128.2
46.96,147.07
47.02,180.65
47.08,249.79
47.14,367.31
47.2,505.6
47.26,615.99
47.32,627.77
47.38,546.67
47.44,405.27
47.5,271.69
47.56,204.47
47.62,163.5
47.68,130.9
47.74,137.39
47.8,140.48
47.86,124.41
47.92,127.43
47.98,129.83
48.04,138.25
48.1,129.45
48.16,132.93
48.22,137.86
48.28,141.29
48.34,140.49
48.4,129.91
48.46,141.05
48.52,132.52
48.58,139.12
48.64,131.17
48.7,143.53
48.76,132.15
48.82,136.03
48.88,133.68
48.94,131.06
49,135.91
49.06,132.39
49.12,140.22
49.18,132.78
49.24,134.38
49.3,138.18
49.36,133.63
49.42,134.27
49.48,129.13
49.54,136.94
49.6,136.74
49.66,134.65
49.72,136.92
49.78,129.16
49.84,137.14
49.9,137.97
49.96,133.38
50.02,132.73
50.08,129.06
50.14,130.55
50.2,129.81
50.26,136.11
50.32,136.04
50.38,138.59
50.44,136.88
50.5,128.9
50.56,137.31
50.62,133.84
50.68,136.91
50.74,141.34
50.8,141
50.86,132.6
50.92,139.74
50.98,130.85
51.04,142.28
51.1,139.43
51.16,133.53
51.22,145.18
51.28,135.05
51.34,136.45
51.4,134.93
51.46,135.36
51.52,136.52
51.58,132.14
51.64,130.98
51.7,140.66
51.76,133.65
51.82,139.97
51.88,137.32
51.94,132.85
52,138.18
52.06,140.78
52.12,143.95
52.18,138.03
52.24,141.56
52.3,135.73
52.36,138.13
52.42,137.3
52.48,136.96
52.54,134.51
52.6,137.65
52.66,138.8
52.72,138.45
52.78,143.53
52.84,150.78
52.9,133.81
52.96,135.49
53.02,140.99
53.08,138.48
53.14,133.34
53.2,134.81
53.26,140.61
53.32,151.53
53.38,134.41
53.44,136.02
53.5,137.8
53.56,140.59
53.62,138.77
53.68,128.92
53.74,135.31
53.8,141.31
53.86,137.89
53.92,136.83
53.98,133.69
54.04,138.23
54.1,136.33
54.16,140.89
54.22,142.76
54.28,133.55
54.34,137.42
54.4,138.4
54.46,133.99
54.52,138.74
54.58,139.4
54.64,131.61
54.7,132.85
54.76,133.58
54.82,134.09
54.88,140.61
54.94,134.45
55,133.02
55.06,126.32
55.12,139.91
55.18,141.03
55.24,139
55.3,142.28
55.36,129.13
55.42,132.93
55.48,139.05
55.54,147.91
55.6,144.87
55.66,141.01
55.72,146.6
55.78,145.94
55.84,186.48
55.9,237.63
55.96,311.09
56.02,401.18
56.08,475.69
56.14,485
56.2,437.18
56.26,344.91
56.32,255.84
56.38,193.58
56.44,166.41
56.5,148.46
56.56,141.59
56.62,131.56
56.68,136.56
56.74,143.15
56.8,146.4
56.86,138.08
56.92,138.17
56.98,142.83
57.04,138.92
57.1,128.2
57.16,145.21
57.22,134.2
57.28,151.87
57.34,137.3
57.4,133.76
57.46,147.26
57.52,141.84
57.58,138.91
57.64,131.71
57.7,136.33
57.76,145.05
57.82,142.99
57.88,135.05
57.94,138.59
58,137.31
58.06,136.08
58.12,141.05
58.18,136.94
58.24,131.13
58.3,146.46
58.36,142.78
58.42,138.32
58.48,140.26
58.54,136.9
58.6,132.2
58.66,140.35
58.72,134.95
58.78,139.24
58.84,135.06
58.9,152.96
58.96,143.82
59.02,137.99
59.08,137.98
59.14,137.03
59.2,133.79
59.26,134.17
59.32,137.94
59.38,140.25
59.44,141.83
59.5,140.4
59.56,144.06
59.62,135.87
59.68,139.8
59.74,144.57
59.8,144.43
59.86,136.58
59.92,139.8
59.98,146.6
60.04,145.51
60.1,145.09
60.16,145.05
60.22,149.09
60.28,141.2
60.34,147.79
60.4,139.56
60.46,131.66
60.52,140.34
60.58,138.01
60.64,141.97
60.7,146
60.76,143.87
60.82,142.87
60.88,140.63
60.94,150.99
61,132.52
61.06,130.51
61.12,130.47
61.18,148.45
61.24,147.66
61.3,136.34
61.36,132.03
61.42,144.31
61.48,140.77
61.54,136.34
61.6,136.24
61.66,142.92
61.72,141.66
61.78,144.4
61.84,143.65
61.9,137.22
61.96,131.79
62.02,148.44
62.08,147.31
62.14,140.46
62.2,133.13
62.26,139.54
62.32,141.49
62.38,149.84
62.44,149.27
62.5,140.84
62.56,137.56
62.62,136.74
62.68,147.4
62.74,140.66
62.8,144.7
62.86,137
62.92,150.01
62.98,153.8
63.04,148.3
63.1,138.97
63.16,141.02
63.22,138.45
63.28,139.87
63.34,140.65
63.4,145.49
63.46,144.49
63.52,149.92
63.58,144.39
63.64,147.13
63.7,142.89
63.76,148.64
63.82,137.08
63.88,149.26
63.94,143.02
64,146.61
64.06,148.28
64.12,144.38
64.18,141.84
64.24,142.06
64.3,142.8
64.36,147.69
64.42,148.97
64.48,139.62
64.54,141.73
64.6,136.76
64.66,140.33
64.72,137.94
64.78,149.65
64.84,138.57
64.9,148.55
64.96,141.95
65.02,140.84
65.08,148.23
65.14,144.52
65.2,139.42
65.26,147.37
65.32,133.85
65.38,146.83
65.44,141.79
65.5,156.21
65.56,145.4
65.62,139.79
65.68,145.05
65.74,142.87
65.8,150.58
65.86,140.63
65.92,146.04
65.98,140.05
66.04,147.67
66.1,143.87
66.16,144.75
66.22,141.57
66.28,143.45
66.34,147.35
66.4,135.77
66.46,138.35
66.52,152.74
66.58,156.03
66.64,148.45
66.7,143.08
66.76,149.63
66.82,149.16
66.88,140.39
66.94,140.63
67,142.99
67.06,145.01
67.12,143.52
67.18,139.41
67.24,139.97
67.3,137.63
67.36,144.27
67.42,140.59
67.48,144.59
67.54,141.35
67.6,145.59
67.66,149.8
67.72,146.68
67.78,142.49
67.84,143.71
67.9,138.16
67.96,139.92
68.02,137.24
68.08,142.25
68.14,144.43
68.2,141.93
68.26,133.21
68.32,152.3
68.38,149.01
68.44,138.11
68.5,149.01
68.56,137.87
68.62,149.34
68.68,142.53
68.74,157.46
68.8,169.01
68.86,181.5
68.92,229.11
68.98,278.84
69.04,324.45
69.1,355.01
69.16,361.06
69.22,325.88
69.28,273.28
69.34,217.91
69.4,188.38
69.46,158.21
69.52,146.82
69.58,158.25
69.64,144.52
69.7,142.96
69.76,146.26
69.82,153.3
69.88,142.76
69.94,156.88
70,151.5
70.06,137.54
70.12,135.44
70.18,149.04
70.24,143.26
70.3,142.57
70.36,147.32
70.42,152.97
70.48,144.64
70.54,138.73
70.6,145.05
70.66,147.37
70.72,146.31
70.78,145.28
70.84,141.22
70.9,143.83
70.96,150.18
71.02,141.09
71.08,143.54
71.14,143.45
71.2,151.75
71.26,146.74
71.32,147.2
71.38,141.72
71.44,138.12
71.5,141.72
71.56,139.74
71.62,140.52
71.68,143.74
71.74,141.6
71.8,152.35
71.86,142.27
71.92,152.86
71.98,149.2
72.04,150.18
72.1,146.53
72.16,139.87
72.22,152.45
72.28,147.84
72.34,145.66
72.4,148.13
72.46,149.22
72.52,146.31
72.58,148.4
72.64,146.84
72.7,140.99
72.76,149.33
72.82,161.83
72.88,144.72
72.94,146.17
73,148.12
73.06,146.13
73.12,160.19
73.18,143.37
73.24,149.66
73.3,148.62
73.36,142.36
73.42,150.43
73.48,150.9
73.54,147.93
73.6,142.14
73.66,149.93
73.72,142.23
73.78,140.36
73.84,147.63
73.9,152.52
73.96,152.39
74.02,153.11
74.08,149.47
74.14,148.96
74.2,147.59
74.26,142.29
74.32,140.86
74.38,152.49
74.44,139.2
74.5,144.58
74.56,150.65
74.62,155.15
74.68,145.21
74.74,151.37
74.8,153.26
74.86,149.02
74.92,143.54
74.98,148.72
75.04,140.79
75.1,149.56
75.16,143.5
75.22,142.45
75.28,145.49
75.34,147.78
75.4,153.42
75.46,146.15
75.52,152.88
75.58,146.1
75.64,145.35
75.7,153.22
75.76,146.2
75.82,149.79
75.88,146.01
75.94,150.21
76,157.45
76.06,168.89
76.12,183.77
76.18,205.69
76.24,239.63
76.3,274.88
76.36,292.99
76.42,282.27
76.48,266.16
76.54,229.89
76.6,198.44
76.66,172.85
76.72,159.27
76.78,145.16
76.84,158.72
76.9,148.06
76.96,151.63
77.02,150.98
77.08,147.17
77.14,146.3
77.2,148.67
77.26,144.34
77.32,149.17
77.38,149.67
77.44,141.69
77.5,146.07
77.56,144.32
77.62,150.8
77.68,148.84
77.74,146.74
77.8,143.9
77.86,144.07
77.92,144.82
77.98,146.9
78.04,145.83
78.1,143.19
78.16,151.93
78.22,139.38
78.28,144
78.34,154.28
78.4,149.63
78.46,144.73
78.52,151.56
78.58,153.65
78.64,148.01
78.7,152.38
78.76,148.36
78.82,150.05
78.88,155.38
78.94,154.77
79,142.01
79.06,153.55
79.12,151.16
79.18,153.87
79.24,143.47
79.3,160.39
79.36,157.21
79.42,148.62
79.48,143.62
79.54,149.09
79.6,147.74
79.66,156.82
79.72,153.96
79.78,149.14
79.84,148.95
79.9,150.19
79.96,149.27
79.98,153.41